Folder: SI-LNPs/data

Note: data/PB_data.txt
L_9.41          M_9.41          S_9.41          L_8.46 
3.0     0.995974418     0.984072648     0.987583287     0.973026489
4.0     0.976059754     0.918052496     0.911981420     0.788129234
5.0     0.801825128     0.797981824     0.739319141     0.632605573
5.8     0.628709484     0.602552198     0.567436245     0.450578960
6.6     0.456135936     0.440723568     0.436294249     0.353371094
7.4     0.362362822     0.356879269     0.347696049     0.274276244
8.0     0.287878323     0.284580664     0.274184028     0.227557777

Note: README.md
# pH-sensitive coarse-grained model of mRNA lipid nanoparticles

This repository contains Python code, [Jupyter](http://jupyter.org) Notebooks, and data for reproducing the results presented in the manuscript _Lipid shape and packing are key for optimal design of pH sensitive mRNA lipid nanoparticles_.

### Usage

To open the Notebooks, install [Miniconda](https://conda.io/miniconda.html) and make sure all required packages are installed by issuing the following terminal commands

```bash
    conda env create -f environment.yml
    source activate faunus
    jupyter-notebook
```

#### Commands to install [Faunus](https://mlund.github.io/faunus/) 

```bash
    tar xvfj faunus.tar.bz2
    conda activate faunus
    cmake . -DENABLE_MPI=OFF -DCMAKE_BUILD_TYPE=Release -DENABLE_OPENMP=OFF
    make faunus -j4
```

#### Contributors

[Giulio Tesei (@gitesei)](https://github.com/gitesei)

[Mikael Lund (@mlund)](https://github.com/mlund)

File: scattering_S2.csv
q (nm-1);I(q);SEM
0.4983;12.3546;0.6021
0.5268;26.092;7.0963
0.5552;49.4323;17.7109
0.5837;36.8491;5.4017
0.6122;22.9806;1.4213
0.6406;22.5;0.7244
0.6691;25.1275;0.6641
0.6976;29.2265;0.8521
0.7261;34.9546;1.1422
0.7545;42.8659;1.5609
0.783;54.0241;2.1924
0.8115;70.3651;3.2058
0.8399;95.601;4.9612
0.8684;137.5426;8.3173
0.8969;214.9797;15.6792
0.9254;383.0263;35.5767
0.9538;875.3106;117.7997
0.9823;3536.55;715.179
1.0108;7995.602;820.8312
1.0392;3438.5;857.1811
1.0677;931.2435;184.464
1.0962;414.7338;45.2591
1.1247;300.4517;22.7299
1.1531;530.2437;55.7581
1.1816;313.0979;60.2431
1.2101;120.2763;13.1581
1.2385;77.0034;5.3261
1.267;57.347;3.0784
1.2955;46.0494;1.9319
1.324;39.0226;1.3177
1.3524;34.4887;1.0059
1.3809;31.7609;0.807
1.4094;30.7653;0.7545
1.4378;32.2177;0.8899
1.4663;39.5906;1.7827
1.4948;76.1151;9.5344
1.5232;143.6117;21.3912
1.5517;73.7573;10.8299
1.5802;49.4543;4.4341
1.6086;61.0135;4.9486
1.6371;88.7719;9.8823
1.6656;158.2508;24.344
1.694;414.0526;104.5205
1.7225;1530.32;381.0291
1.751;2181.76;379.802
1.7794;1070.97;243.0143
1.8079;585.9354;207.1443
1.8364;435.7571;50.995
1.8648;294.8549;71.0737
1.8933;161.0253;46.7876
1.9218;119.5454;11.8589
1.9502;169.9052;22.6969
1.9787;493.5868;144.5113
2.0072;1006.54;203.0041
2.0356;785.0255;166.8658
2.0641;429.736;101.9115
2.0926;364.7022;75.7798
2.121;184.6111;42.3579
2.1495;117.6763;55.3806
2.178;49.3273;13.3638
2.2064;32.0059;5.2521
2.2349;23.6149;2.5795
2.2633;21.1829;2.0066
2.2918;30.1322;4.2319
2.3203;56.5157;7.3723
2.3487;27.1235;7.2472
2.3772;14.5882;3.2992
2.4056;16.0599;3.967
2.4341;27.5216;4.3117
2.4626;25.4736;3.285
2.491;17.1376;2.9227
2.5195;18.5425;4.9765
2.548;12.8806;2.4071
2.5764;12.2491;2.1777
2.6049;22.943;5.0127
2.6333;70.8989;14.4351
2.6618;101.3095;20.7818
2.6902;88.8692;15.2479
2.7187;67.8841;8.6239
2.7472;54.328;13.7232
2.7756;25.2477;7.4285
2.8041;19.5011;8.5473
2.8325;14.8512;2.2749
2.861;24.1303;2.2759
2.8894;50.0033;9.4612
2.9179;42.8572;5.5041
2.9464;26.4628;4.771
2.9748;37.7566;11.7628
3.0033;65.294;14.556
3.0317;66.775;11.8004
3.0602;55.4515;7.9629
3.0886;38.213;4.9315
3.1171;23.8556;4.2594
3.1455;23.8247;5.255
3.174;45.2965;7.7679
3.2024;21.3913;3.3481
3.2309;19.3584;2.8873
3.2593;12.6804;2.588
3.2878;7.9934;1.6254
3.3162;9.2903;2.2333
3.3447;9.2701;1.4654
3.3731;11.6795;2.5525
3.4016;11.984;2.3876
3.43;16.6019;3.7485
3.4585;34.4399;5.8722
3.4869;57.7074;6.3955
3.5154;65.9;8.89
3.5438;43.4224;6.0154
3.5723;40.3813;8.7673
3.6007;49.6046;9.0002
3.6292;60.746;8.5941
3.6576;67.3245;11.0065
3.686;45.2173;8.0057
3.7145;29.8339;7.5585
3.7429;26.2043;9.6922
3.7714;28.3968;7.2502
3.7998;33.0216;4.2651
3.8283;24.1446;5.1235
3.8567;19.4986;3.8748
3.8851;23.4826;3.7612
3.9136;22.978;2.9449
3.942;15.7189;1.8667
3.9705;12.1485;2.1548
3.9989;19.2511;3.6186
4.0273;23.689;4.3663
4.0558;18.4417;1.2124
4.0842;14.007;2.5929
4.1127;10.1668;1.5794
4.1411;15.5054;2.1025
4.1695;24.1307;2.9004
4.198;16.6201;2.5554
4.2264;8.9122;0.9773
4.2548;9.2116;1.703
4.2833;17.8598;1.4071
4.3117;20.1973;2.1136
4.3401;18.9655;2.3681
4.3686;28.3551;6.8721
4.397;26.5724;3.9854
4.4254;24.2489;3.6096
4.4539;19.3617;4.4275
4.4823;15.3618;1.6023
4.5107;22.9193;3.252
4.5392;23.8257;2.8586
4.5676;26.9885;3.6665
4.596;33.3597;6.3387
4.6244;40.5934;5.6325
4.6529;35.8596;5.0787
4.6813;28.508;4.1226
4.7097;24.7358;2.7692
4.7381;25.0163;3.3756
4.7666;18.8832;3.2888
4.795;16.419;5.1558
4.8234;12.7498;2.3123
4.8518;11.3711;0.8462
4.8803;13.2567;1.9288
4.9087;15.807;2.0887
4.9371;24.4016;1.6588
4.9655;22.2085;2.6355
4.9797;18.8298;2.5754